{
  "practitioner": {
    "resourceType": "Practitioner",
    "id": "prac-001",
    "meta": {
      "versionId": "1",
      "lastUpdated": "2025-10-24T15:00:00Z"
    },
    "identifier": [
      {
        "use": "official",
        "type": {
          "coding": [
            {
              "system": "http://terminology.hl7.org/CodeSystem/v2-0203",
              "code": "NPI",
              "display": "National Provider Identifier"
            }
          ]
        },
        "system": "http://hl7.org/fhir/sid/us-npi",
        "value": "1234567890"
      }
    ],
    "active": true,
    "name": [
      {
        "use": "official",
        "family": "Johnson",
        "given": ["Sarah", "Elizabeth"],
        "prefix": ["Dr."],
        "suffix": ["MD"]
      }
    ],
    "telecom": [
      {
        "system": "phone",
        "value": "617-555-0123",
        "use": "work"
      },
      {
        "system": "email",
        "value": "sarah.johnson@example.com",
        "use": "work"
      }
    ],
    "address": [
      {
        "use": "work",
        "type": "physical",
        "line": ["123 Medical Plaza", "Suite 200"],
        "city": "Boston",
        "state": "MA",
        "postalCode": "02101",
        "country": "USA"
      },
      {
        "use": "work",
        "type": "physical",
        "line": ["456 Healthcare Drive"],
        "city": "Cambridge",
        "state": "MA",
        "postalCode": "02138",
        "country": "USA"
      }
    ],
    "gender": "female",
    "birthDate": "1980-05-15",
    "qualification": [
      {
        "code": {
          "coding": [
            {
              "system": "http://terminology.hl7.org/CodeSystem/v2-0360",
              "code": "MD",
              "display": "Doctor of Medicine"
            }
          ]
        },
        "issuer": {
          "display": "Harvard Medical School"
        }
      }
    ],
    "npi": "1234567890",
    "tin": "12-3456789",
    "caqhId": "CAQ-12345",
    "medicalSchool": "Harvard Medical School",
    "residencyProgram": "Massachusetts General Hospital - Internal Medicine",
    "licenses": [
      {
        "code": {
          "coding": [
            {
              "system": "http://terminology.hl7.org/CodeSystem/v2-0360",
              "code": "MD"
            }
          ]
        },
        "state": "MA",
        "licenseNumber": "MD123456",
        "licenseType": "MD",
        "status": "active",
        "issueDate": "2010-07-01",
        "expirationDate": "2026-06-30"
      },
      {
        "code": {
          "coding": [
            {
              "system": "http://terminology.hl7.org/CodeSystem/v2-0360",
              "code": "MD"
            }
          ]
        },
        "state": "NH",
        "licenseNumber": "NH78901",
        "licenseType": "MD",
        "status": "active",
        "issueDate": "2012-01-15",
        "expirationDate": "2026-01-14"
      },
      {
        "code": {
          "coding": [
            {
              "system": "http://terminology.hl7.org/CodeSystem/v2-0360",
              "code": "MD"
            }
          ]
        },
        "state": "CT",
        "licenseNumber": "CT45678",
        "licenseType": "MD",
        "status": "active",
        "issueDate": "2015-03-20",
        "expirationDate": "2026-03-19"
      }
    ],
    "boardCertifications": [
      {
        "board": "American Board of Internal Medicine",
        "specialty": "Internal Medicine",
        "certificationDate": "2012-10-15",
        "expirationDate": "2026-10-15",
        "status": "active",
        "certificateNumber": "ABIM-987654"
      },
      {
        "board": "American Board of Internal Medicine",
        "specialty": "Cardiovascular Disease",
        "certificationDate": "2015-06-20",
        "expirationDate": "2026-06-20",
        "status": "active",
        "certificateNumber": "ABIM-CV-112233"
      }
    ]
  },
  "roles": [
    {
      "resourceType": "PractitionerRole",
      "id": "role-001",
      "meta": {
        "lastUpdated": "2025-10-24T15:00:00Z"
      },
      "active": true,
      "practitioner": {
        "reference": "Practitioner/prac-001",
        "display": "Dr. Sarah Johnson"
      },
      "organization": {
        "reference": "Organization/org-001",
        "display": "Boston Medical Associates"
      },
      "code": [
        {
          "coding": [
            {
              "system": "http://terminology.hl7.org/CodeSystem/practitioner-role",
              "code": "doctor",
              "display": "Doctor"
            }
          ]
        }
      ],
      "specialty": [
        {
          "coding": [
            {
              "system": "http://nucc.org/provider-taxonomy",
              "code": "207RC0000X",
              "display": "Internal Medicine - Cardiovascular Disease"
            }
          ]
        }
      ],
      "taxonomyCodes": [
        {
          "code": "207R00000X",
          "classification": "Internal Medicine",
          "display": "Internal Medicine",
          "isPrimary": true
        },
        {
          "code": "207RC0000X",
          "classification": "Internal Medicine",
          "specialization": "Cardiovascular Disease",
          "display": "Internal Medicine - Cardiovascular Disease",
          "isPrimary": false
        }
      ],
      "telecom": [
        {
          "system": "phone",
          "value": "617-555-0123",
          "use": "work"
        }
      ],
      "availableTime": [
        {
          "daysOfWeek": ["mon", "tue", "wed", "thu"],
          "availableStartTime": "09:00:00",
          "availableEndTime": "17:00:00"
        },
        {
          "daysOfWeek": ["fri"],
          "availableStartTime": "09:00:00",
          "availableEndTime": "13:00:00"
        }
      ],
      "insurancePlans": [
        {
          "carrier": "Aetna",
          "planName": "Aetna PPO",
          "lob": "Commercial",
          "networkStatus": "In-Network",
          "planId": "AETNA-PPO-001",
          "effectiveDate": "2024-01-01",
          "acceptingNewPatients": true,
          "participationLevel": "Full"
        },
        {
          "carrier": "Blue Cross Blue Shield of Massachusetts",
          "planName": "BCBS HMO Blue",
          "lob": "Commercial",
          "networkStatus": "In-Network",
          "planId": "BCBS-HMO-001",
          "effectiveDate": "2024-01-01",
          "acceptingNewPatients": true,
          "participationLevel": "Full"
        },
        {
          "carrier": "Medicare",
          "planName": "Traditional Medicare",
          "lob": "Medicare",
          "networkStatus": "In-Network",
          "planId": "MEDICARE-TRAD",
          "effectiveDate": "2020-01-01",
          "acceptingNewPatients": true,
          "participationLevel": "Full"
        },
        {
          "carrier": "Harvard Pilgrim Health Care",
          "planName": "Harvard Pilgrim EPO",
          "lob": "Commercial",
          "networkStatus": "In-Network",
          "planId": "HPHC-EPO-001",
          "effectiveDate": "2024-01-01",
          "acceptingNewPatients": false,
          "participationLevel": "Limited"
        },
        {
          "carrier": "Tufts Health Plan",
          "planName": "Tufts Freedom Plan",
          "lob": "Commercial",
          "networkStatus": "In-Network",
          "planId": "TUFTS-FREE-001",
          "effectiveDate": "2024-01-01",
          "acceptingNewPatients": true,
          "participationLevel": "Full"
        }
      ],
      "credentialingStatus": {
        "status": "approved",
        "effectiveDate": "2024-01-01",
        "expirationDate": "2026-12-31",
        "lastVerifiedDate": "2025-10-01",
        "verifiedBy": "Credentialing Committee"
      }
    }
  ],
  "organizations": [
    {
      "resourceType": "Organization",
      "id": "org-001",
      "meta": {
        "lastUpdated": "2025-10-24T15:00:00Z"
      },
      "identifier": [
        {
          "use": "official",
          "type": {
            "coding": [
              {
                "system": "http://terminology.hl7.org/CodeSystem/v2-0203",
                "code": "NPI"
              }
            ]
          },
          "system": "http://hl7.org/fhir/sid/us-npi",
          "value": "9876543210"
        }
      ],
      "active": true,
      "type": [
        {
          "coding": [
            {
              "system": "http://terminology.hl7.org/CodeSystem/organization-type",
              "code": "prov",
              "display": "Healthcare Provider"
            }
          ]
        }
      ],
      "name": "Boston Medical Associates",
      "telecom": [
        {
          "system": "phone",
          "value": "617-555-0100",
          "use": "work"
        },
        {
          "system": "email",
          "value": "info@bostonmedical.example.com",
          "use": "work"
        }
      ],
      "address": [
        {
          "use": "work",
          "type": "physical",
          "line": ["123 Medical Plaza"],
          "city": "Boston",
          "state": "MA",
          "postalCode": "02101",
          "country": "USA"
        }
      ],
      "npi": "9876543210",
      "taxId": "98-7654321",
      "accreditation": [
        {
          "accreditingBody": "The Joint Commission",
          "status": "accredited",
          "effectiveDate": "2023-01-01",
          "expirationDate": "2026-12-31",
          "certificateNumber": "TJC-2023-001"
        }
      ],
      "facilities": [
        {
          "id": "fac-001",
          "name": "Boston Medical Plaza - Main",
          "type": "Clinic",
          "address": {
            "use": "work",
            "line": ["123 Medical Plaza", "Suite 200"],
            "city": "Boston",
            "state": "MA",
            "postalCode": "02101",
            "country": "USA"
          },
          "telecom": [
            {
              "system": "phone",
              "value": "617-555-0123"
            }
          ],
          "services": ["Cardiology", "Internal Medicine", "Primary Care"],
          "wheelchairAccessible": true,
          "parking": {
            "available": true,
            "type": "paid",
            "description": "Underground parking garage, $15/day"
          }
        },
        {
          "id": "fac-002",
          "name": "Cambridge Satellite Office",
          "type": "Clinic",
          "address": {
            "use": "work",
            "line": ["456 Healthcare Drive"],
            "city": "Cambridge",
            "state": "MA",
            "postalCode": "02138",
            "country": "USA"
          },
          "telecom": [
            {
              "system": "phone",
              "value": "617-555-0200"
            }
          ],
          "services": ["Cardiology", "Internal Medicine"],
          "wheelchairAccessible": true,
          "parking": {
            "available": true,
            "type": "free",
            "description": "Free surface lot"
          }
        }
      ]
    }
  ]
}
