{
  "practitioner": {
    "resourceType": "Practitioner",
    "id": "prac-002",
    "meta": {
      "versionId": "1",
      "lastUpdated": "2025-10-24T15:00:00Z"
    },
    "identifier": [
      {
        "use": "official",
        "system": "http://hl7.org/fhir/sid/us-npi",
        "value": "2345678901"
      }
    ],
    "active": true,
    "name": [
      {
        "use": "official",
        "family": "Chen",
        "given": ["Michael", "Wei"],
        "prefix": ["Dr."],
        "suffix": ["MD", "PhD"]
      }
    ],
    "telecom": [
      {
        "system": "phone",
        "value": "415-555-0456",
        "use": "work"
      },
      {
        "system": "email",
        "value": "michael.chen@example.com",
        "use": "work"
      }
    ],
    "address": [
      {
        "use": "work",
        "type": "physical",
        "line": ["789 University Medical Center"],
        "city": "San Francisco",
        "state": "CA",
        "postalCode": "94143",
        "country": "USA"
      },
      {
        "use": "work",
        "type": "physical",
        "line": ["321 Community Health Clinic"],
        "city": "Oakland",
        "state": "CA",
        "postalCode": "94612",
        "country": "USA"
      },
      {
        "use": "work",
        "type": "physical",
        "line": ["555 Pediatric Care Center"],
        "city": "Berkeley",
        "state": "CA",
        "postalCode": "94704",
        "country": "USA"
      }
    ],
    "gender": "male",
    "birthDate": "1978-11-22",
    "npi": "2345678901",
    "tin": "98-7654321",
    "caqhId": "CAQ-67890",
    "medicalSchool": "Stanford University School of Medicine",
    "residencyProgram": "UCSF Benioff Children's Hospital - Pediatrics",
    "licenses": [
      {
        "code": {
          "coding": [{"system": "http://terminology.hl7.org/CodeSystem/v2-0360", "code": "MD"}]
        },
        "state": "CA",
        "licenseNumber": "CA234567",
        "licenseType": "MD",
        "status": "active",
        "issueDate": "2008-06-15",
        "expirationDate": "2026-06-14"
      },
      {
        "code": {
          "coding": [{"system": "http://terminology.hl7.org/CodeSystem/v2-0360", "code": "MD"}]
        },
        "state": "NV",
        "licenseNumber": "NV98765",
        "licenseType": "MD",
        "status": "active",
        "issueDate": "2016-09-01",
        "expirationDate": "2026-08-31"
      }
    ],
    "boardCertifications": [
      {
        "board": "American Board of Pediatrics",
        "specialty": "Pediatrics",
        "certificationDate": "2011-07-01",
        "expirationDate": "2027-06-30",
        "status": "active",
        "certificateNumber": "ABP-445566"
      },
      {
        "board": "American Board of Pediatrics",
        "specialty": "Pediatric Cardiology",
        "certificationDate": "2014-10-15",
        "expirationDate": "2027-10-14",
        "status": "active",
        "certificateNumber": "ABP-PC-778899"
      }
    ]
  },
  "roles": [
    {
      "resourceType": "PractitionerRole",
      "id": "role-002",
      "meta": {"lastUpdated": "2025-10-24T15:00:00Z"},
      "active": true,
      "practitioner": {
        "reference": "Practitioner/prac-002",
        "display": "Dr. Michael Chen"
      },
      "organization": {
        "reference": "Organization/org-002",
        "display": "Bay Area Pediatrics Group"
      },
      "code": [
        {
          "coding": [
            {
              "system": "http://terminology.hl7.org/CodeSystem/practitioner-role",
              "code": "doctor"
            }
          ]
        }
      ],
      "taxonomyCodes": [
        {
          "code": "208000000X",
          "classification": "Pediatrics",
          "display": "Pediatrics",
          "isPrimary": true
        },
        {
          "code": "2080P0216X",
          "classification": "Pediatrics",
          "specialization": "Pediatric Critical Care Medicine",
          "display": "Pediatrics - Pediatric Critical Care Medicine",
          "isPrimary": false
        }
      ],
      "availableTime": [
        {
          "daysOfWeek": ["mon", "wed", "fri"],
          "availableStartTime": "08:00:00",
          "availableEndTime": "18:00:00"
        },
        {
          "daysOfWeek": ["tue", "thu"],
          "availableStartTime": "10:00:00",
          "availableEndTime": "16:00:00"
        }
      ],
      "insurancePlans": [
        {
          "carrier": "Kaiser Permanente",
          "planName": "Kaiser HMO",
          "lob": "Commercial",
          "networkStatus": "In-Network",
          "planId": "KAISER-HMO-001",
          "effectiveDate": "2023-01-01",
          "acceptingNewPatients": true,
          "participationLevel": "Full"
        },
        {
          "carrier": "Blue Shield of California",
          "planName": "Blue Shield PPO",
          "lob": "Commercial",
          "networkStatus": "In-Network",
          "planId": "BS-CA-PPO-001",
          "effectiveDate": "2023-01-01",
          "acceptingNewPatients": true,
          "participationLevel": "Full"
        },
        {
          "carrier": "Anthem Blue Cross",
          "planName": "Anthem Select HMO",
          "lob": "Commercial",
          "networkStatus": "In-Network",
          "planId": "ANTHEM-HMO-001",
          "effectiveDate": "2024-01-01",
          "acceptingNewPatients": false,
          "participationLevel": "Referral Only"
        },
        {
          "carrier": "Medicaid",
          "planName": "Medi-Cal",
          "lob": "Medicaid",
          "networkStatus": "In-Network",
          "planId": "MEDI-CAL-001",
          "effectiveDate": "2020-01-01",
          "acceptingNewPatients": true,
          "participationLevel": "Full"
        }
      ],
      "credentialingStatus": {
        "status": "approved",
        "effectiveDate": "2023-01-01",
        "expirationDate": "2026-12-31",
        "lastVerifiedDate": "2025-09-15",
        "verifiedBy": "Medical Staff Office"
      }
    }
  ],
  "organizations": [
    {
      "resourceType": "Organization",
      "id": "org-002",
      "meta": {"lastUpdated": "2025-10-24T15:00:00Z"},
      "identifier": [
        {
          "use": "official",
          "system": "http://hl7.org/fhir/sid/us-npi",
          "value": "8765432109"
        }
      ],
      "active": true,
      "name": "Bay Area Pediatrics Group",
      "telecom": [
        {
          "system": "phone",
          "value": "415-555-0300"
        }
      ],
      "address": [
        {
          "line": ["789 University Medical Center"],
          "city": "San Francisco",
          "state": "CA",
          "postalCode": "94143"
        }
      ],
      "npi": "8765432109",
      "taxId": "87-6543210",
      "facilities": [
        {
          "id": "fac-003",
          "name": "UCSF Pediatrics Main",
          "type": "Clinic",
          "address": {
            "line": ["789 University Medical Center"],
            "city": "San Francisco",
            "state": "CA",
            "postalCode": "94143"
          },
          "services": ["Pediatrics", "Pediatric Cardiology", "Well Child Visits"],
          "wheelchairAccessible": true
        },
        {
          "id": "fac-004",
          "name": "Oakland Community Pediatrics",
          "type": "Clinic",
          "address": {
            "line": ["321 Community Health Clinic"],
            "city": "Oakland",
            "state": "CA",
            "postalCode": "94612"
          },
          "services": ["Pediatrics", "Immunizations"],
          "wheelchairAccessible": true
        },
        {
          "id": "fac-005",
          "name": "Berkeley Children's Health",
          "type": "Clinic",
          "address": {
            "line": ["555 Pediatric Care Center"],
            "city": "Berkeley",
            "state": "CA",
            "postalCode": "94704"
          },
          "services": ["Pediatrics", "Adolescent Medicine"],
          "wheelchairAccessible": true
        }
      ]
    }
  ]
}
